{
  "resourceType": "Medication",
  "id": "medexample015",
  "text": {
    "status": "generated",
    "div": "<div>…</div>"
  },
  "contained": [
    {
      "resourceType": "Organization",
      "id": "mmanu",
      "name": "Medication Manufacturer"
    },
    {
      "resourceType": "Substance",
      "id": "sub04",
      "instance": false,
      "code": {
        "concept": {
          "coding": [
            {
              "system": "http://snomed.info/sct",
              "code": "386906001",
              "display": "Capecitabine (substance)"
            }
          ]
        }
      }
    }
  ],
  "code": {
    "coding": [
      {
        "system": "http://www.nlm.nih.gov/research/umls/rxnorm",
        "code": "213293",
        "display": "Capecitabine 500mg oral tablet (Xeloda)"
      }
    ]
  },
  "marketingAuthorizationHolder": {
    "reference": "#mmanu"
  },
  "doseForm": {
    "coding": [
      {
        "system": "http://snomed.info/sct",
        "code": "385055001",
        "display": "Tablet dose form (qualifier value)"
      }
    ]
  },
  "ingredient": [
    {
      "item": {
        "reference": {
          "reference": "#sub04"
        }
      },
      "strengthRatio": {
        "numerator": {
          "value": 500,
          "system": "http://unitsofmeasure.org",
          "code": "mg"
        },
        "denominator": {
          "value": 1,
          "system": "http://terminology.hl7.org/CodeSystem/v3-orderableDrugForm",
          "code": "TAB"
        }
      }
    }
  ],
  "batch": {
    "lotNumber": "9494788",
    "expirationDate": "2017-05-22"
  }
}
